trials.thisRepN,trials.thisTrialN,trials.thisN,trials.thisIndex,fixation.started,key_resp.started,fixation.stopped,key_resp.keys,key_resp.corr,key_resp.rt,key_resp.duration,tilt,participant,session,date,expName,psychopyVersion,frameRate,
0,0,0,0,15.476361100000304,16.47164950000024,16.478611400000318,up,1,0.821017099999608,None,0,524505,001,2023-09-14_16h20.31.484,Tutorial 2,2023.1.3,59.978072016931435,
1,0,1,0,17.31242340000017,18.312671200000295,18.312671200000295,down,0,0.5805665999996563,None,0,524505,001,2023-09-14_16h20.31.484,Tutorial 2,2023.1.3,59.978072016931435,
2,0,2,0,18.913024899999982,19.913364300000012,19.913364300000012,up,1,0.6332246999995732,None,0,524505,001,2023-09-14_16h20.31.484,Tutorial 2,2023.1.3,59.978072016931435,
3,0,3,0,20.563564000000042,21.563968599999953,21.563968599999953,up,0,0.6963182999993478,None,4,524505,001,2023-09-14_16h20.31.484,Tutorial 2,2023.1.3,59.978072016931435,
4,0,4,0,22.280941800000164,23.28128390000029,23.28128390000029,down,1,0.4854756999993697,None,-2,524505,001,2023-09-14_16h20.31.484,Tutorial 2,2023.1.3,59.978072016931435,
5,0,5,0,23.798100299999987,24.798509400000057,24.798509400000057,up,0,0.5246723999998721,None,1,524505,001,2023-09-14_16h20.31.484,Tutorial 2,2023.1.3,59.978072016931435,
6,0,6,0,25.348809300000084,26.3492040000001,26.3492040000001,down,0,0.47957169999972393,None,0,524505,001,2023-09-14_16h20.31.484,Tutorial 2,2023.1.3,59.978072016931435,
7,0,7,0,26.849297000000206,27.849621000000297,27.849621000000297,up,0,0.3185360999996192,None,3,524505,001,2023-09-14_16h20.31.484,Tutorial 2,2023.1.3,59.978072016931435,
8,0,8,0,28.19985110000016,29.200202999999874,29.200202999999874,down,1,0.3141531999995095,None,-1,524505,001,2023-09-14_16h20.31.484,Tutorial 2,2023.1.3,59.978072016931435,
9,0,9,0,29.5337356,30.534030300000268,30.534030300000268,up,0,0.35965739999937796,None,-2,524505,001,2023-09-14_16h20.31.484,Tutorial 2,2023.1.3,59.978072016931435,
10,0,10,0,30.917529300000297,31.917821000000004,31.917821000000004,down,1,0.37015979999932824,None,0,524505,001,2023-09-14_16h20.31.484,Tutorial 2,2023.1.3,59.978072016931435,
11,0,11,0,32.31799080000019,33.31840030000012,33.31840030000012,up,0,0.39698369999950955,None,-5,524505,001,2023-09-14_16h20.31.484,Tutorial 2,2023.1.3,59.978072016931435,
12,0,12,0,33.735227900000154,34.7355493,34.7355493,down,1,0.04333399999950416,None,0,524505,001,2023-09-14_16h20.31.484,Tutorial 2,2023.1.3,59.978072016931435,
13,0,13,0,34.80228160000024,35.80264390000002,35.80264390000002,down,1,0.3825162999996792,None,4,524505,001,2023-09-14_16h20.31.484,Tutorial 2,2023.1.3,59.978072016931435,
14,0,14,0,36.20291420000012,37.20318040000029,37.20318040000029,up,0,0.3055402999998478,None,0,524505,001,2023-09-14_16h20.31.484,Tutorial 2,2023.1.3,59.978072016931435,
15,0,15,0,37.536660799999936,38.537095300000146,38.537095300000146,up,1,0.7090730999993866,None,0,524505,001,2023-09-14_16h20.31.484,Tutorial 2,2023.1.3,59.978072016931435,
16,0,16,0,39.2706318999999,40.271043799999916,40.271043799999916,down,1,0.5744723999996495,None,1,524505,001,2023-09-14_16h20.31.484,Tutorial 2,2023.1.3,59.978072016931435,
17,0,17,0,40.87126760000001,41.87163760000021,41.87163760000021,down,0,0.1445040999997218,None,0,524505,001,2023-09-14_16h20.31.484,Tutorial 2,2023.1.3,59.978072016931435,
18,0,18,0,42.03835690000005,43.03878200000008,43.03878200000008,up,1,0.35057599999981903,None,0,524505,001,2023-09-14_16h20.31.484,Tutorial 2,2023.1.3,59.978072016931435,
19,0,19,0,43.42222170000014,44.422596500000054,44.422596500000054,down,0,0.20892479999974967,None,0,524505,001,2023-09-14_16h20.31.484,Tutorial 2,2023.1.3,59.978072016931435,
20,0,20,0,44.65600399999994,45.656354700000065,45.656354700000065,up,0,0.2617198999996617,None,0,524505,001,2023-09-14_16h20.31.484,Tutorial 2,2023.1.3,59.978072016931435,
21,0,21,0,45.93982920000008,46.94023749999997,46.94023749999997,down,0,0.13181729999996605,None,0,524505,001,2023-09-14_16h20.31.484,Tutorial 2,2023.1.3,59.978072016931435,
22,0,22,0,47.09025900000006,48.0906159000001,48.0906159000001,up,1,0.3058608999995158,None,0,524505,001,2023-09-14_16h20.31.484,Tutorial 2,2023.1.3,59.978072016931435,
23,0,23,0,48.424130700000205,49.424436400000104,49.424436400000104,down,0,0.4470849999997881,None,0,524505,001,2023-09-14_16h20.31.484,Tutorial 2,2023.1.3,59.978072016931435,
24,0,24,0,49.89139879999993,50.891767099999925,50.891767099999925,up,0,0.4478567999999541,None,-4,524505,001,2023-09-14_16h20.31.484,Tutorial 2,2023.1.3,59.978072016931435,
25,0,25,0,51.358552000000145,52.35899130000007,52.35899130000007,up,0,0.04534229999944728,None,-4,524505,001,2023-09-14_16h20.31.484,Tutorial 2,2023.1.3,59.978072016931435,
26,0,26,0,52.42574360000026,53.42603420000023,53.42603420000023,down,1,0.5204343999994308,None,3,524505,001,2023-09-14_16h20.31.484,Tutorial 2,2023.1.3,59.978072016931435,
27,0,27,0,53.97629349999988,54.97654550000016,54.97654550000016,down,1,0.3706616999998005,None,-5,524505,001,2023-09-14_16h20.31.484,Tutorial 2,2023.1.3,59.978072016931435,
28,0,28,0,55.376755799999955,56.37711399999989,56.37711399999989,down,1,0.03105409999989206,None,-1,524505,001,2023-09-14_16h20.31.484,Tutorial 2,2023.1.3,59.978072016931435,
29,0,29,0,56.42730970000002,57.42752430000019,57.42752430000019,up,1,0.2975064999995993,None,0,524505,001,2023-09-14_16h20.31.484,Tutorial 2,2023.1.3,59.978072016931435,
30,0,30,0,57.74434139999994,58.74472999999989,58.74472999999989,up,1,0.2289651999999478,None,0,524505,001,2023-09-14_16h20.31.484,Tutorial 2,2023.1.3,59.978072016931435,
31,0,31,0,58.99475549999988,59.995183400000315,59.995183400000315,down,0,0.2007432999998855,None,0,524505,001,2023-09-14_16h20.31.484,Tutorial 2,2023.1.3,59.978072016931435,
32,0,32,0,60.22866920000024,61.22903350000024,61.22903350000024,down,1,0.0410476999995808,None,-3,524505,001,2023-09-14_16h20.31.484,Tutorial 2,2023.1.3,59.978072016931435,
33,0,33,0,61.29570629999989,62.29605010000023,62.29605010000023,down,1,0.197987899999589,None,-3,524505,001,2023-09-14_16h20.31.484,Tutorial 2,2023.1.3,59.978072016931435,
34,0,34,0,62.512794700000086,63.51317610000024,63.51317610000024,down,1,0.2270498999996562,None,-3,524505,001,2023-09-14_16h20.31.484,Tutorial 2,2023.1.3,59.978072016931435,
35,0,35,0,63.76336949999995,64.76385310000023,64.76385310000023,down,1,0.02012929999955304,None,-1,524505,001,2023-09-14_16h20.31.484,Tutorial 2,2023.1.3,59.978072016931435,
36,0,36,0,64.81385499999988,65.81427389999999,65.81427389999999,down,1,0.21010749999959444,None,-1,524505,001,2023-09-14_16h20.31.484,Tutorial 2,2023.1.3,59.978072016931435,
37,0,37,0,66.04775390000032,67.04779959999996,67.04779959999996,up,1,0.27699659999962023,None,0,524505,001,2023-09-14_16h20.31.484,Tutorial 2,2023.1.3,59.978072016931435,
38,0,38,0,67.34811730000001,68.34830390000025,68.34830390000025,down,1,0.06115669999962847,None,-5,524505,001,2023-09-14_16h20.31.484,Tutorial 2,2023.1.3,59.978072016931435,
39,0,39,0,68.43174330000011,69.43203519999997,69.43203519999997,up,1,0.0393380999994406,None,0,524505,001,2023-09-14_16h20.31.484,Tutorial 2,2023.1.3,59.978072016931435,
40,0,40,0,69.49871940000003,70.4991556,70.4991556,up,0,0.17003239999939979,None,3,524505,001,2023-09-14_16h20.31.484,Tutorial 2,2023.1.3,59.978072016931435,
41,0,41,0,70.69936640000014,71.6995992000002,71.6995992000002,down,0,0.007881199999701494,None,0,524505,001,2023-09-14_16h20.31.484,Tutorial 2,2023.1.3,59.978072016931435,
42,0,42,0,71.73308840000027,72.73339540000006,72.73339540000006,down,1,0.08861549999983254,None,-4,524505,001,2023-09-14_16h20.31.484,Tutorial 2,2023.1.3,59.978072016931435,
43,0,43,0,72.85013079999999,73.8503641000002,73.8503641000002,up,0,0.5177852999995594,None,0,524505,001,2023-09-14_16h20.31.484,Tutorial 2,2023.1.3,59.978072016931435,
44,0,44,0,74.4006631000002,75.40101129999994,75.40101129999994,up,0,0.20904010000003836,None,0,524505,001,2023-09-14_16h20.31.484,Tutorial 2,2023.1.3,59.978072016931435,
45,0,45,0,75.63442359999999,76.63478260000011,76.63478260000011,down,1,1.0195185999996283,None,-1,524505,001,2023-09-14_16h20.31.484,Tutorial 2,2023.1.3,59.978072016931435,
46,0,46,0,77.68517030000021,78.68567800000028,78.68567800000028,up,0,0.23822699999982433,None,0,524505,001,2023-09-14_16h20.31.484,Tutorial 2,2023.1.3,59.978072016931435,
47,0,47,0,78.95234299999993,79.95278760000019,79.95278760000019,up,1,0.6376632999995309,None,0,524505,001,2023-09-14_16h20.31.484,Tutorial 2,2023.1.3,59.978072016931435,
48,0,48,0,80.61964750000016,81.62006680000013,81.62006680000013,up,0,0.45330669999975726,None,-2,524505,001,2023-09-14_16h20.31.484,Tutorial 2,2023.1.3,59.978072016931435,
49,0,49,0,82.1036623,83.10389000000032,83.10389000000032,up,1,0.4508619999996881,None,0,524505,001,2023-09-14_16h20.31.484,Tutorial 2,2023.1.3,59.978072016931435,
50,0,50,0,83.58745120000003,84.58782950000023,84.58782950000023,up,0,0.49785739999970247,None,3,524505,001,2023-09-14_16h20.31.484,Tutorial 2,2023.1.3,59.978072016931435,
51,0,51,0,85.10469259999991,86.1050408000001,86.1050408000001,up,0,0.34502729999985604,None,-1,524505,001,2023-09-14_16h20.31.484,Tutorial 2,2023.1.3,59.978072016931435,
52,0,52,0,86.47189810000009,87.47220460000017,87.47220460000017,up,1,0.4108445999995638,None,0,524505,001,2023-09-14_16h20.31.484,Tutorial 2,2023.1.3,59.978072016931435,
53,0,53,0,87.90584510000008,88.9061658999999,88.9061658999999,up,0,0.3017229999995834,None,2,524505,001,2023-09-14_16h20.31.484,Tutorial 2,2023.1.3,59.978072016931435,
54,0,54,0,89.2396818000002,90.2400348000001,90.2400348000001,up,0,0.2583140999995521,None,-5,524505,001,2023-09-14_16h20.31.484,Tutorial 2,2023.1.3,59.978072016931435,
55,0,55,0,90.52344640000001,91.52385790000017,91.52385790000017,up,1,0.15143309999939447,None,0,524505,001,2023-09-14_16h20.31.484,Tutorial 2,2023.1.3,59.978072016931435,
56,0,56,0,91.70732589999989,92.70758870000009,92.70758870000009,up,1,0.1069350999996459,None,0,524505,001,2023-09-14_16h20.31.484,Tutorial 2,2023.1.3,59.978072016931435,
57,0,57,0,92.84102310000026,93.84142629999997,93.84142629999997,up,0,0.03759009999976115,None,4,524505,001,2023-09-14_16h20.31.484,Tutorial 2,2023.1.3,59.978072016931435,
58,0,58,0,93.90801259999989,94.90845910000007,94.90845910000007,up,0,0.08263049999959549,None,-3,524505,001,2023-09-14_16h20.31.484,Tutorial 2,2023.1.3,59.978072016931435,
59,0,59,0,95.00853439999992,96.00882219999994,96.00882219999994,up,1,0.370620499999859,None,0,524505,001,2023-09-14_16h20.31.484,Tutorial 2,2023.1.3,59.978072016931435,
60,0,60,0,96.40896449999991,97.4093911,97.4093911,up,0,0.24850569999989602,None,-4,524505,001,2023-09-14_16h20.31.484,Tutorial 2,2023.1.3,59.978072016931435,
61,0,61,0,97.67624100000012,98.67646800000011,98.67646800000011,up,0,0.11407999999983076,None,-1,524505,001,2023-09-14_16h20.31.484,Tutorial 2,2023.1.3,59.978072016931435,
62,0,62,0,98.8099545,99.81031789999997,99.81031789999997,up,0,0.13319339999952717,None,-4,524505,001,2023-09-14_16h20.31.484,Tutorial 2,2023.1.3,59.978072016931435,
63,0,63,0,99.96032910000031,100.96073650000017,100.96073650000017,up,0,0.05021339999984775,None,-4,524505,001,2023-09-14_16h20.31.484,Tutorial 2,2023.1.3,59.978072016931435,
64,0,64,0,101.02750480000032,102.02782070000012,102.02782070000012,up,1,0.05200409999997646,None,0,524505,001,2023-09-14_16h20.31.484,Tutorial 2,2023.1.3,59.978072016931435,
65,0,65,0,102.11123720000023,103.11147560000018,103.11147560000018,up,1,0.02926759999991191,None,0,524505,001,2023-09-14_16h20.31.484,Tutorial 2,2023.1.3,59.978072016931435,
66,0,66,0,103.16160660000014,104.16203760000008,104.16203760000008,down,0,0.4794111999995039,None,0,524505,001,2023-09-14_16h20.31.484,Tutorial 2,2023.1.3,59.978072016931435,
67,0,67,0,104.6621812000003,105.66246290000026,105.66246290000026,down,0,0.30969929999946544,None,0,524505,001,2023-09-14_16h20.31.484,Tutorial 2,2023.1.3,59.978072016931435,
68,0,68,0,105.99597940000012,106.99642769999991,106.99642769999991,up,0,0.46874729999944975,None,0,524505,001,2023-09-14_16h20.31.484,Tutorial 2,2023.1.3,59.978072016931435,
69,0,69,0,107.49656210000012,108.49688670000023,108.49688670000023,up,0,0.12002859999938664,None,-4,524505,001,2023-09-14_16h20.31.484,Tutorial 2,2023.1.3,59.978072016931435,
70,0,70,0,108.64703929999996,109.64732760000015,109.64732760000015,up,1,0.26109409999980926,None,0,524505,001,2023-09-14_16h20.31.484,Tutorial 2,2023.1.3,59.978072016931435,
71,0,71,0,109.93076070000006,110.93120829999998,110.93120829999998,up,1,0.10726429999931497,None,0,524505,001,2023-09-14_16h20.31.484,Tutorial 2,2023.1.3,59.978072016931435,
72,0,72,0,111.06451030000017,112.06492860000026,112.06492860000026,down,0,0.46725189999961003,None,0,524505,001,2023-09-14_16h20.31.484,Tutorial 2,2023.1.3,59.978072016931435,
73,0,73,0,112.56515889999991,113.5655299,113.5655299,up,0,0.38517759999967893,None,-1,524505,001,2023-09-14_16h20.31.484,Tutorial 2,2023.1.3,59.978072016931435,
74,0,74,0,113.98236029999998,114.98284450000028,114.98284450000028,up,0,0.18378309999934572,None,1,524505,001,2023-09-14_16h20.31.484,Tutorial 2,2023.1.3,59.978072016931435,
75,0,75,0,115.1831443000001,116.18340040000021,116.18340040000021,up,1,0.32396319999998013,None,0,524505,001,2023-09-14_16h20.31.484,Tutorial 2,2023.1.3,59.978072016931435,
76,0,76,0,116.53351479999992,117.53386490000003,117.53386490000003,up,1,0.33482199999980367,None,0,524505,001,2023-09-14_16h20.31.484,Tutorial 2,2023.1.3,59.978072016931435,
77,0,77,0,117.8878950000003,118.88421930000004,118.90085399999998,up,0,0.25779279999960636,None,1,524505,001,2023-09-14_16h20.31.484,Tutorial 2,2023.1.3,59.978072016931435,
78,0,78,0,119.16768860000002,120.16798349999999,120.16798349999999,up,1,0.027206499999920197,None,0,524505,001,2023-09-14_16h20.31.484,Tutorial 2,2023.1.3,59.978072016931435,
79,0,79,0,120.21809230000008,121.21835400000009,121.21835400000009,up,1,0.10888769999974102,None,0,524505,001,2023-09-14_16h20.31.484,Tutorial 2,2023.1.3,59.978072016931435,
80,0,80,0,121.35177810000005,122.3522108000002,122.3522108000002,up,0,0.3350885999998354,None,1,524505,001,2023-09-14_16h20.31.484,Tutorial 2,2023.1.3,59.978072016931435,
81,0,81,0,122.71895649999988,123.71934499999998,123.71934499999998,up,0,0.26248809999970035,None,0,524505,001,2023-09-14_16h20.31.484,Tutorial 2,2023.1.3,59.978072016931435,
82,0,82,0,124.00286779999988,125.00316150000026,125.00316150000026,up,0,0.282253199999559,None,-4,524505,001,2023-09-14_16h20.31.484,Tutorial 2,2023.1.3,59.978072016931435,
83,0,83,0,125.30332020000014,126.3036517999999,126.3036517999999,up,0,0.26575580000007903,None,0,524505,001,2023-09-14_16h20.31.484,Tutorial 2,2023.1.3,59.978072016931435,
84,0,84,0,126.58715710000024,127.58747679999988,127.58747679999988,up,0,0.22550809999984267,None,4,524505,001,2023-09-14_16h20.31.484,Tutorial 2,2023.1.3,59.978072016931435,
85,0,85,0,127.83760359999997,128.83797679999998,128.83797679999998,up,1,0.27389119999998,None,0,524505,001,2023-09-14_16h20.31.484,Tutorial 2,2023.1.3,59.978072016931435,
86,0,86,0,129.13811910000004,130.13849170000003,130.13849170000003,up,1,0.26039259999970454,None,0,524505,001,2023-09-14_16h20.31.484,Tutorial 2,2023.1.3,59.978072016931435,
87,0,87,0,130.42189270000017,131.42229940000016,131.42229940000016,up,1,0.348916299999928,None,0,524505,001,2023-09-14_16h20.31.484,Tutorial 2,2023.1.3,59.978072016931435,
88,0,88,0,131.78907630000003,132.78946010000027,132.78946010000027,up,1,0.1983828999996149,None,0,524505,001,2023-09-14_16h20.31.484,Tutorial 2,2023.1.3,59.978072016931435,
89,0,89,0,133.0062283000002,134.00659730000007,134.00659730000007,up,0,0.2109600999997383,None,-1,524505,001,2023-09-14_16h20.31.484,Tutorial 2,2023.1.3,59.978072016931435,
90,0,90,0,134.24008679999997,135.2403720000002,135.2403720000002,up,0,0.23423069999944346,None,-5,524505,001,2023-09-14_16h20.31.484,Tutorial 2,2023.1.3,59.978072016931435,
91,0,91,0,135.50715480000008,136.50761250000005,136.50761250000005,up,0,0.22348569999985557,None,1,524505,001,2023-09-14_16h20.31.484,Tutorial 2,2023.1.3,59.978072016931435,
92,0,92,0,136.75761360000024,137.7580514000001,137.7580514000001,up,1,0.17615699999987555,None,0,524505,001,2023-09-14_16h20.31.484,Tutorial 2,2023.1.3,59.978072016931435,
93,0,93,0,137.95817780000016,138.95844949999992,138.95844949999992,up,1,0.11074099999996179,None,0,524505,001,2023-09-14_16h20.31.484,Tutorial 2,2023.1.3,59.978072016931435,
94,0,94,0,139.09182710000005,140.09234749999996,140.09234749999996,up,0,0.20857689999957074,None,3,524505,001,2023-09-14_16h20.31.484,Tutorial 2,2023.1.3,59.978072016931435,
95,0,95,0,140.32565879999993,141.32620309999993,141.32620309999993,up,0,0.2214974999997139,None,4,524505,001,2023-09-14_16h20.31.484,Tutorial 2,2023.1.3,59.978072016931435,
96,0,96,0,141.57621890000019,142.57649500000025,142.57649500000025,up,0,1.1947472999995625,None,-5,524505,001,2023-09-14_16h20.31.484,Tutorial 2,2023.1.3,59.978072016931435,
97,0,97,0,143.79366930000015,144.79401450000023,144.79401450000023,up,0,0.3375922999998693,None,0,524505,001,2023-09-14_16h20.31.484,Tutorial 2,2023.1.3,59.978072016931435,
98,0,98,0,145.16091240000014,146.1612825000002,146.1612825000002,up,0,0.3627077000001009,None,-2,524505,001,2023-09-14_16h20.31.484,Tutorial 2,2023.1.3,59.978072016931435,
99,0,99,0,146.54473450000023,147.54510140000002,147.54510140000002,up,1,0.32129519999944023,None,0,524505,001,2023-09-14_16h20.31.484,Tutorial 2,2023.1.3,59.978072016931435,
100,0,100,0,147.89531420000003,148.89553560000013,148.89553560000013,up,1,0.3203144999997676,None,0,524505,001,2023-09-14_16h20.31.484,Tutorial 2,2023.1.3,59.978072016931435,
101,0,101,0,149.2457905000001,150.24610780000012,150.24610780000012,down,0,0.10969539999950939,None,0,524505,001,2023-09-14_16h20.31.484,Tutorial 2,2023.1.3,59.978072016931435,
102,0,102,0,150.37948800000004,151.37993050000023,151.37993050000023,up,0,0.054519599999821367,None,-4,524505,001,2023-09-14_16h20.31.484,Tutorial 2,2023.1.3,59.978072016931435,
103,0,103,0,151.46315929999992,152.46371420000014,152.46371420000014,up,1,0.19347249999964333,None,0,524505,001,2023-09-14_16h20.31.484,Tutorial 2,2023.1.3,59.978072016931435,
104,0,104,0,152.68062120000013,153.6807386999999,153.6807386999999,down,0,0.8367996999995739,None,0,524505,001,2023-09-14_16h20.31.484,Tutorial 2,2023.1.3,59.978072016931435,
105,0,105,0,154.54783810000026,155.54812140000013,155.54812140000013,down,1,0.03554459999941173,None,0,524505,001,2023-09-14_16h20.31.484,Tutorial 2,2023.1.3,59.978072016931435,
106,0,106,0,155.61479820000022,156.61522680000007,156.61522680000007,down,1,0.16031530000009298,None,0,524505,001,2023-09-14_16h20.31.484,Tutorial 2,2023.1.3,59.978072016931435,
107,0,107,0,156.7985593000003,157.79909530000032,157.79909530000032,down,1,0.20164089999980206,None,-1,524505,001,2023-09-14_16h20.31.484,Tutorial 2,2023.1.3,59.978072016931435,
108,0,108,0,158.03253320000022,159.03276370000003,159.03276370000003,down,0,0.20176319999973202,None,0,524505,001,2023-09-14_16h20.31.484,Tutorial 2,2023.1.3,59.978072016931435,
109,0,109,0,159.26646740000024,160.26658050000015,160.26658050000015,down,0,0.16743219999989378,None,0,524505,001,2023-09-14_16h20.31.484,Tutorial 2,2023.1.3,59.978072016931435,
110,0,110,0,160.46670300000005,161.46702649999997,161.46702649999997,down,0,0.19658509999953822,None,0,524505,001,2023-09-14_16h20.31.484,Tutorial 2,2023.1.3,59.978072016931435,
111,0,111,0,161.6837728999999,162.6841374999999,162.6841374999999,down,0,0.14904029999979684,None,0,524505,001,2023-09-14_16h20.31.484,Tutorial 2,2023.1.3,59.978072016931435,
112,0,112,0,162.8509257999999,163.85127450000027,163.85127450000027,down,1,0.15122269999937998,None,1,524505,001,2023-09-14_16h20.31.484,Tutorial 2,2023.1.3,59.978072016931435,
113,0,113,0,164.03466220000018,165.03511720000006,165.03511720000006,down,1,0.13020549999964715,None,1,524505,001,2023-09-14_16h20.31.484,Tutorial 2,2023.1.3,59.978072016931435,
114,0,114,0,165.18523300000015,166.18576900000016,166.18576900000016,down,1,0.12060829999973066,None,-4,524505,001,2023-09-14_16h20.31.484,Tutorial 2,2023.1.3,59.978072016931435,
115,0,115,0,166.3357163999999,167.3360118999999,167.3360118999999,down,1,0.11489309999979014,None,-2,524505,001,2023-09-14_16h20.31.484,Tutorial 2,2023.1.3,59.978072016931435,
116,0,116,0,167.4695102999999,168.46988349999992,168.46988349999992,down,1,0.03753719999940586,None,-5,524505,001,2023-09-14_16h20.31.484,Tutorial 2,2023.1.3,59.978072016931435,
117,0,117,0,168.53666520000024,169.53672640000013,169.53672640000013,down,1,0.0714468999995006,None,-2,524505,001,2023-09-14_16h20.31.484,Tutorial 2,2023.1.3,59.978072016931435,
118,0,118,0,169.63679000000002,170.63717889999998,170.63717889999998,down,0,0.08146419999957288,None,0,524505,001,2023-09-14_16h20.31.484,Tutorial 2,2023.1.3,59.978072016931435,
119,0,119,0,170.7373361,171.73762260000012,171.73762260000012,down,1,0.1614926999995987,None,-3,524505,001,2023-09-14_16h20.31.484,Tutorial 2,2023.1.3,59.978072016931435,
120,0,120,0,171.92102479999994,172.92198210000015,172.92198210000015,down,0,0.12306339999986449,None,0,524505,001,2023-09-14_16h20.31.484,Tutorial 2,2023.1.3,59.978072016931435,
121,0,121,0,173.07140909999998,174.07184580000012,174.07184580000012,down,1,0.10630009999977119,None,-2,524505,001,2023-09-14_16h20.31.484,Tutorial 2,2023.1.3,59.978072016931435,
122,0,122,0,174.2052166000003,175.2061137999999,175.2061137999999,down,1,0.0766128000000208,None,1,524505,001,2023-09-14_16h20.31.484,Tutorial 2,2023.1.3,59.978072016931435,
123,0,123,0,175.3056492999999,176.3061158999999,176.3061158999999,up,1,0.555528499999582,None,0,524505,001,2023-09-14_16h20.31.484,Tutorial 2,2023.1.3,59.978072016931435,
124,0,124,0,176.88952130000007,177.8899653000003,177.8899653000003,down,0,0.43090709999933097,None,0,524505,001,2023-09-14_16h20.31.484,Tutorial 2,2023.1.3,59.978072016931435,
125,0,125,0,178.34019690000014,179.3405041000001,179.3405041000001,down,1,0.05535849999978382,None,2,524505,001,2023-09-14_16h20.31.484,Tutorial 2,2023.1.3,59.978072016931435,
126,0,126,0,179.4238534000001,180.42421319999994,180.42421319999994,down,1,0.09946369999988747,None,-4,524505,001,2023-09-14_16h20.31.484,Tutorial 2,2023.1.3,59.978072016931435,
127,0,127,0,180.54100960000005,181.54124469999988,181.54124469999988,down,1,0.05953139999974155,None,1,524505,001,2023-09-14_16h20.31.484,Tutorial 2,2023.1.3,59.978072016931435,
128,0,128,0,181.6246716999999,182.62503289999995,182.62503289999995,down,1,0.10174339999957738,None,-5,524505,001,2023-09-14_16h20.31.484,Tutorial 2,2023.1.3,59.978072016931435,
129,0,129,0,182.75846469999988,183.75880760000018,183.75880760000018,down,0,0.07905989999972007,None,0,524505,001,2023-09-14_16h20.31.484,Tutorial 2,2023.1.3,59.978072016931435,
130,0,130,0,183.8588138,184.85927429999992,184.85927429999992,down,1,0.055713599999762664,None,0,524505,001,2023-09-14_16h20.31.484,Tutorial 2,2023.1.3,59.978072016931435,
131,0,131,0,184.9425814000001,185.94294519999994,185.94294519999994,down,1,0.21775559999969119,None,3,524505,001,2023-09-14_16h20.31.484,Tutorial 2,2023.1.3,59.978072016931435,
132,0,132,0,186.1930755000003,187.19344230000024,187.19344230000024,down,1,0.07812699999976758,None,1,524505,001,2023-09-14_16h20.31.484,Tutorial 2,2023.1.3,59.978072016931435,
133,0,133,0,187.29350109999996,188.29389720000017,188.29389720000017,down,1,0.05068799999980911,None,2,524505,001,2023-09-14_16h20.31.484,Tutorial 2,2023.1.3,59.978072016931435,
134,0,134,0,188.37725210000008,189.37757469999997,189.37757469999997,down,0,0.06506559999934325,None,0,524505,001,2023-09-14_16h20.31.484,Tutorial 2,2023.1.3,59.978072016931435,
135,0,135,0,189.46108430000004,190.4614220000003,190.4614220000003,down,1,0.05239449999999124,None,3,524505,001,2023-09-14_16h20.31.484,Tutorial 2,2023.1.3,59.978072016931435,
136,0,136,0,190.54477459999998,191.5451653,191.5451653,down,0,0.0694816999998693,None,0,524505,001,2023-09-14_16h20.31.484,Tutorial 2,2023.1.3,59.978072016931435,
137,0,137,0,191.6452072000002,192.64556200000015,192.64556200000015,down,0,0.1487647999992987,None,0,524505,001,2023-09-14_16h20.31.484,Tutorial 2,2023.1.3,59.978072016931435,
138,0,138,0,192.81230730000016,193.81261470000027,193.81261470000027,down,0,0.11813949999941542,None,0,524505,001,2023-09-14_16h20.31.484,Tutorial 2,2023.1.3,59.978072016931435,
139,0,139,0,193.96268529999998,194.96310059999996,194.96310059999996,down,1,0.12754169999971054,None,-2,524505,001,2023-09-14_16h20.31.484,Tutorial 2,2023.1.3,59.978072016931435,
140,0,140,0,195.11313400000017,196.11351390000027,196.11351390000027,down,0,0.23881699999992634,None,0,524505,001,2023-09-14_16h20.31.484,Tutorial 2,2023.1.3,59.978072016931435,
141,0,141,0,196.38037050000003,197.38064480000003,197.38064480000003,up,1,0.7799448999999186,None,0,524505,001,2023-09-14_16h20.31.484,Tutorial 2,2023.1.3,59.978072016931435,
142,0,142,0,198.18096980000018,199.18139550000024,199.18139550000024,down,0,0.7405519999997523,None,0,524505,001,2023-09-14_16h20.31.484,Tutorial 2,2023.1.3,59.978072016931435,
143,0,143,0,199.94829500000014,200.9486982000003,200.9486982000003,up,1,0.2679448999997476,None,0,524505,001,2023-09-14_16h20.31.484,Tutorial 2,2023.1.3,59.978072016931435,
144,0,144,0,201.2488274000002,202.24919670000008,202.24919670000008,up,0,0.29864859999952387,None,0,524505,001,2023-09-14_16h20.31.484,Tutorial 2,2023.1.3,59.978072016931435,
145,0,145,0,202.5659473999999,203.56632630000013,203.56632630000013,down,1,0.27357749999964653,None,-4,524505,001,2023-09-14_16h20.31.484,Tutorial 2,2023.1.3,59.978072016931435,
146,0,146,0,203.8664603000002,204.86690820000013,204.86690820000013,down,0,0.9827982999995584,None,0,524505,001,2023-09-14_16h20.31.484,Tutorial 2,2023.1.3,59.978072016931435,
147,0,147,0,205.8672902000003,206.86762290000024,206.86762290000024,down,0,0.4680734999997185,None,0,524505,001,2023-09-14_16h20.31.484,Tutorial 2,2023.1.3,59.978072016931435,
148,0,148,0,207.36763740000015,208.36820549999993,208.36820549999993,down,0,0.6250212999998439,None,0,524505,001,2023-09-14_16h20.31.484,Tutorial 2,2023.1.3,59.978072016931435,
149,0,149,0,209.0183978,210.0188189999999,210.0188189999999,down,0,0.5446058999996239,None,0,524505,001,2023-09-14_16h20.31.484,Tutorial 2,2023.1.3,59.978072016931435,
150,0,150,0,210.58569930000021,211.58612919999996,211.58612919999996,down,0,0.7090833999995994,None,0,524505,001,2023-09-14_16h20.31.484,Tutorial 2,2023.1.3,59.978072016931435,
151,0,151,0,212.3197014000002,213.31998629999998,213.31998629999998,down,1,0.6783265999997639,None,-3,524505,001,2023-09-14_16h20.31.484,Tutorial 2,2023.1.3,59.978072016931435,
152,0,152,0,214.02039730000024,215.02072369999996,215.02072369999996,up,0,0.3088243999995939,None,-2,524505,001,2023-09-14_16h20.31.484,Tutorial 2,2023.1.3,59.978072016931435,
153,0,153,0,215.35425000000032,216.35454260000006,216.35454260000006,down,1,0.30934369999977207,None,-2,524505,001,2023-09-14_16h20.31.484,Tutorial 2,2023.1.3,59.978072016931435,
154,0,154,0,216.68797140000015,217.68857690000004,217.68857690000004,up,0,0.6255532999994102,None,3,524505,001,2023-09-14_16h20.31.484,Tutorial 2,2023.1.3,59.978072016931435,
155,0,155,0,218.3388219000003,219.33913239999993,219.33913239999993,down,1,0.6675659999996242,None,1,524505,001,2023-09-14_16h20.31.484,Tutorial 2,2023.1.3,59.978072016931435,
156,0,156,0,220.0230575999999,221.02301050000005,221.02301050000005,down,1,1.1150093999995079,None,-1,524505,001,2023-09-14_16h20.31.484,Tutorial 2,2023.1.3,59.978072016931435,
157,0,157,0,222.1568053000001,223.15727560000005,223.15727560000005,up,1,0.2932303999996293,None,0,524505,001,2023-09-14_16h20.31.484,Tutorial 2,2023.1.3,59.978072016931435,
158,0,158,0,223.47390900000028,224.47428330000002,224.47428330000002,up,0,0.3459159999993062,None,-5,524505,001,2023-09-14_16h20.31.484,Tutorial 2,2023.1.3,59.978072016931435,
159,0,159,0,224.84119920000012,225.84146800000008,225.84146800000008,up,0,0.2872063999998318,None,-3,524505,001,2023-09-14_16h20.31.484,Tutorial 2,2023.1.3,59.978072016931435,
160,0,160,0,226.15824770000017,227.15875920000008,227.15875920000008,up,1,0.44930149999936475,None,0,524505,001,2023-09-14_16h20.31.484,Tutorial 2,2023.1.3,59.978072016931435,
161,0,161,0,227.62548490000017,228.62585940000008,228.62585940000008,up,1,0.5306026999996902,None,0,524505,001,2023-09-14_16h20.31.484,Tutorial 2,2023.1.3,59.978072016931435,
162,0,162,0,229.17608700000028,230.17647370000032,230.17647370000032,down,0,0.43307629999981145,None,0,524505,001,2023-09-14_16h20.31.484,Tutorial 2,2023.1.3,59.978072016931435,
163,0,163,0,230.62663550000025,231.62703229999988,231.62703229999988,up,1,0.8584218999994846,None,0,524505,001,2023-09-14_16h20.31.484,Tutorial 2,2023.1.3,59.978072016931435,
164,0,164,0,232.51074370000015,233.5110794000002,233.5110794000002,up,0,0.5446723999993992,None,-2,524505,001,2023-09-14_16h20.31.484,Tutorial 2,2023.1.3,59.978072016931435,
165,0,165,0,234.07799870000008,235.07833449999998,235.07833449999998,down,1,0.3417732999996588,None,-3,524505,001,2023-09-14_16h20.31.484,Tutorial 2,2023.1.3,59.978072016931435,
166,0,166,0,235.44512080000004,236.4455538000002,236.4455538000002,down,1,0.49355919999970865,None,3,524505,001,2023-09-14_16h20.31.484,Tutorial 2,2023.1.3,59.978072016931435,
167,0,167,0,236.96242299999994,237.96281679999993,237.96281679999993,up,1,0.5929684999996425,None,0,524505,001,2023-09-14_16h20.31.484,Tutorial 2,2023.1.3,59.978072016931435,
168,0,168,0,238.57972210000025,239.5800379000002,239.5800379000002,down,0,0.4285773999995399,None,0,524505,001,2023-09-14_16h20.31.484,Tutorial 2,2023.1.3,59.978072016931435,
169,0,169,0,240.0301715999999,241.03056090000018,241.03056090000018,up,0,0.44302769999967495,None,-2,524505,001,2023-09-14_16h20.31.484,Tutorial 2,2023.1.3,59.978072016931435,
170,0,170,0,241.4974027000003,242.49794920000022,242.49794920000022,up,1,0.5753529999997227,None,0,524505,001,2023-09-14_16h20.31.484,Tutorial 2,2023.1.3,59.978072016931435,
171,0,171,0,243.09803869999996,244.09842740000022,244.09842740000022,down,1,0.2507934999994177,None,2,524505,001,2023-09-14_16h20.31.484,Tutorial 2,2023.1.3,59.978072016931435,
172,0,172,0,244.38187779999998,245.38226040000018,245.38226040000018,up,0,0.5528468999996221,None,3,524505,001,2023-09-14_16h20.31.484,Tutorial 2,2023.1.3,59.978072016931435,
173,0,173,0,245.96582979999994,246.96616040000026,246.96616040000026,down,1,0.5053394999995362,None,-5,524505,001,2023-09-14_16h20.31.484,Tutorial 2,2023.1.3,59.978072016931435,
174,0,174,0,247.4997303,248.50003900000002,248.50003900000002,down,1,0.43350039999995715,None,1,524505,001,2023-09-14_16h20.31.484,Tutorial 2,2023.1.3,59.978072016931435,
175,0,175,0,248.95026080000025,249.95069990000002,249.95069990000002,down,0,0.6324627999997574,None,0,524505,001,2023-09-14_16h20.31.484,Tutorial 2,2023.1.3,59.978072016931435,
176,0,176,0,250.6008480999999,251.6012869000001,251.6012869000001,down,1,0.30635839999968084,None,3,524505,001,2023-09-14_16h20.31.484,Tutorial 2,2023.1.3,59.978072016931435,
177,0,177,0,251.93477759999996,252.9351316000002,252.9351316000002,up,0,0.23521479999999428,None,2,524505,001,2023-09-14_16h20.31.484,Tutorial 2,2023.1.3,59.978072016931435,
178,0,178,0,253.2018837999999,254.20218010000008,254.20218010000008,down,1,0.5513176999997995,None,3,524505,001,2023-09-14_16h20.31.484,Tutorial 2,2023.1.3,59.978072016931435,
179,0,179,0,254.78583909999998,255.78614470000002,255.78614470000002,down,0,0.6488704999997026,None,0,524505,001,2023-09-14_16h20.31.484,Tutorial 2,2023.1.3,59.978072016931435,
180,0,180,0,256.4531729,257.4534705000001,257.4534705000001,down,1,0.4931355999997322,None,2,524505,001,2023-09-14_16h20.31.484,Tutorial 2,2023.1.3,59.978072016931435,
181,0,181,0,257.97032990000025,258.97068560000025,258.97068560000025,down,0,0.4583791000000019,None,0,524505,001,2023-09-14_16h20.31.484,Tutorial 2,2023.1.3,59.978072016931435,
182,0,182,0,259.45423100000016,260.4546981000003,260.4546981000003,down,0,0.2917175999996289,None,0,524505,001,2023-09-14_16h20.31.484,Tutorial 2,2023.1.3,59.978072016931435,
183,0,183,0,260.77148020000004,261.7717925000002,261.7717925000002,up,0,0.25994239999954516,None,3,524505,001,2023-09-14_16h20.31.484,Tutorial 2,2023.1.3,59.978072016931435,
184,0,184,0,262.05524000000014,263.0567430000001,263.0567430000001,down,0,0.04516849999981787,None,0,524505,001,2023-09-14_16h20.31.484,Tutorial 2,2023.1.3,59.978072016931435,
185,0,185,0,263.1223341,264.1226964000002,264.1226964000002,down,1,0.07917269999961718,None,1,524505,001,2023-09-14_16h20.31.484,Tutorial 2,2023.1.3,59.978072016931435,
186,0,186,0,264.2227402000003,265.2231264000002,265.2231264000002,up,1,0.31545699999969656,None,0,524505,001,2023-09-14_16h20.31.484,Tutorial 2,2023.1.3,59.978072016931435,
187,0,187,0,265.5565727000003,266.5569386000002,266.5569386000002,up,0,0.2350162999996428,None,2,524505,001,2023-09-14_16h20.31.484,Tutorial 2,2023.1.3,59.978072016931435,
188,0,188,0,266.82383819999995,267.82417840000016,267.82417840000016,up,1,0.37761049999971874,None,0,524505,001,2023-09-14_16h20.31.484,Tutorial 2,2023.1.3,59.978072016931435,
189,0,189,0,268.22432260000005,269.22475870000017,269.22475870000017,up,0,0.29114729999946576,None,1,524505,001,2023-09-14_16h20.31.484,Tutorial 2,2023.1.3,59.978072016931435,
190,0,190,0,269.5417017,270.5419984,270.5419984,down,1,0.3516611999998531,None,-1,524505,001,2023-09-14_16h20.31.484,Tutorial 2,2023.1.3,59.978072016931435,
191,0,191,0,270.9254868000003,271.9256498,271.9256498,down,0,0.32457099999965067,None,0,524505,001,2023-09-14_16h20.31.484,Tutorial 2,2023.1.3,59.978072016931435,
192,0,192,0,272.2758266999999,273.2762292000002,273.2762292000002,up,0,0.3241762999996354,None,-3,524505,001,2023-09-14_16h20.31.484,Tutorial 2,2023.1.3,59.978072016931435,
193,0,193,0,273.62636169999996,274.62661660000003,274.62661660000003,up,0,0.49529269999948156,None,-3,524505,001,2023-09-14_16h20.31.484,Tutorial 2,2023.1.3,59.978072016931435,
194,0,194,0,275.14352370000006,276.1438183999999,276.1438183999999,up,0,0.5834756999997808,None,3,524505,001,2023-09-14_16h20.31.484,Tutorial 2,2023.1.3,59.978072016931435,
195,0,195,0,276.74411869999994,277.7445778000001,277.7445778000001,up,1,0.4199265999995987,None,0,524505,001,2023-09-14_16h20.31.484,Tutorial 2,2023.1.3,59.978072016931435,
196,0,196,0,278.19473289999996,279.1950675000003,279.1950675000003,up,0,0.2982000999995762,None,-4,524505,001,2023-09-14_16h20.31.484,Tutorial 2,2023.1.3,59.978072016931435,
197,0,197,0,279.51195510000025,280.5122326999999,280.5122326999999,up,1,0.5767395999996552,None,0,524505,001,2023-09-14_16h20.31.484,Tutorial 2,2023.1.3,59.978072016931435,
198,0,198,0,281.11248220000016,282.1128311000002,282.1128311000002,up,0,0.5048956000000544,None,-4,524505,001,2023-09-14_16h20.31.484,Tutorial 2,2023.1.3,59.978072016931435,
199,0,199,0,282.64639290000014,283.6468052,283.6468052,up,1,0.3940956999995251,None,0,524505,001,2023-09-14_16h20.31.484,Tutorial 2,2023.1.3,59.978072016931435,
200,0,200,0,284.0636263000001,285.0639473000001,285.0639473000001,up,1,0.3093853999998828,None,0,524505,001,2023-09-14_16h20.31.484,Tutorial 2,2023.1.3,59.978072016931435,
201,0,201,0,285.3975210000003,286.3977536000002,286.3977536000002,up,0,0.3389384999995855,None,4,524505,001,2023-09-14_16h20.31.484,Tutorial 2,2023.1.3,59.978072016931435,
202,0,202,0,286.7646021999999,287.7649660000002,287.7649660000002,up,0,0.26973199999974895,None,-2,524505,001,2023-09-14_16h20.31.484,Tutorial 2,2023.1.3,59.978072016931435,
203,0,203,0,288.06572080000024,289.06549510000013,289.06549510000013,up,1,0.24581199999965975,None,0,524505,001,2023-09-14_16h20.31.484,Tutorial 2,2023.1.3,59.978072016931435,
204,0,204,0,289.3323688999999,290.33261200000015,290.33261200000015,up,1,0.3706795999996757,None,0,524505,001,2023-09-14_16h20.31.484,Tutorial 2,2023.1.3,59.978072016931435,
205,0,205,0,290.73285320000014,291.7331978000002,291.7331978000002,up,1,0.40791069999932006,None,0,524505,001,2023-09-14_16h20.31.484,Tutorial 2,2023.1.3,59.978072016931435,
206,0,206,0,292.1667282000003,293.1670925000003,293.1670925000003,up,0,0.3922185999995236,None,-2,524505,001,2023-09-14_16h20.31.484,Tutorial 2,2023.1.3,59.978072016931435,
207,0,207,0,293.5838982,294.58426340000005,294.58426340000005,up,0,0.23916629999939687,None,-5,524505,001,2023-09-14_16h20.31.484,Tutorial 2,2023.1.3,59.978072016931435,
208,0,208,0,294.85099470000023,295.85132969999995,295.85132969999995,up,0,0.396370499999648,None,-4,524505,001,2023-09-14_16h20.31.484,Tutorial 2,2023.1.3,59.978072016931435,
209,0,209,0,296.2682058999999,297.2686294,297.2686294,up,1,0.3633489999997437,None,0,524505,001,2023-09-14_16h20.31.484,Tutorial 2,2023.1.3,59.978072016931435,
210,0,210,0,297.65211480000016,298.6524994000001,298.6524994000001,down,0,1.9192325999997593,None,0,524505,001,2023-09-14_16h20.31.484,Tutorial 2,2023.1.3,59.978072016931435,
211,0,211,0,300.603196,301.60351850000006,301.60351850000006,up,1,0.820621200000005,None,0,524505,001,2023-09-14_16h20.31.484,Tutorial 2,2023.1.3,59.978072016931435,
212,0,212,0,302.45389090000026,303.4542902000003,303.4542902000003,down,0,0.21451879999949597,None,0,524505,001,2023-09-14_16h20.31.484,Tutorial 2,2023.1.3,59.978072016931435,
213,0,213,0,303.6876769999999,304.6879770999999,304.6879770999999,down,1,0.38512360000004264,None,4,524505,001,2023-09-14_16h20.31.484,Tutorial 2,2023.1.3,59.978072016931435,
214,0,214,0,305.1049174,306.1052754000002,306.1052754000002,up,0,0.11968089999982112,None,-3,524505,001,2023-09-14_16h20.31.484,Tutorial 2,2023.1.3,59.978072016931435,
215,0,215,0,306.25539100000015,307.2556821000003,307.2556821000003,up,0,0.39756069999975807,None,-4,524505,001,2023-09-14_16h20.31.484,Tutorial 2,2023.1.3,59.978072016931435,
216,0,216,0,307.6726146000001,308.6729279000001,308.6729279000001,down,1,0.27592669999967256,None,2,524505,001,2023-09-14_16h20.31.484,Tutorial 2,2023.1.3,59.978072016931435,
217,0,217,0,308.97304010000016,309.97344950000024,309.97344950000024,up,1,0.7348240999995141,None,0,524505,001,2023-09-14_16h20.31.484,Tutorial 2,2023.1.3,59.978072016931435,
218,0,218,0,310.7405295000003,311.7407625999999,311.7407625999999,up,0,0.3750996999997369,None,-3,524505,001,2023-09-14_16h20.31.484,Tutorial 2,2023.1.3,59.978072016931435,
219,0,219,0,312.14090639999995,313.1412914000002,313.1412914000002,up,0,0.4429608999998891,None,-3,524505,001,2023-09-14_16h20.31.484,Tutorial 2,2023.1.3,59.978072016931435,
220,0,220,0,313.6081105000003,314.60850930000015,314.60850930000015,up,1,0.16654389999985142,None,0,524505,001,2023-09-14_16h20.31.484,Tutorial 2,2023.1.3,59.978072016931435,
221,0,221,0,314.79197950000025,315.79226100000005,315.79226100000005,up,1,0.3064002999994955,None,0,524505,001,2023-09-14_16h20.31.484,Tutorial 2,2023.1.3,59.978072016931435,
222,0,222,0,316.12587680000024,317.1262683,317.1262683,up,0,0.21436939999966853,None,2,524505,001,2023-09-14_16h20.31.484,Tutorial 2,2023.1.3,59.978072016931435,
223,0,223,0,317.3595728,318.35995460000004,318.35995460000004,up,0,0.2899352999997973,None,-3,524505,001,2023-09-14_16h20.31.484,Tutorial 2,2023.1.3,59.978072016931435,
224,0,224,0,318.6768284,319.6772040000001,319.6772040000001,up,1,0.3284046999997372,None,0,524505,001,2023-09-14_16h20.31.484,Tutorial 2,2023.1.3,59.978072016931435,
225,0,225,0,320.02742820000003,321.0277573000003,321.0277573000003,up,1,0.33261709999987943,None,0,524505,001,2023-09-14_16h20.31.484,Tutorial 2,2023.1.3,59.978072016931435,
226,0,226,0,321.3778881000003,322.37809890000017,322.37809890000017,up,1,0.29264999999986685,None,0,524505,001,2023-09-14_16h20.31.484,Tutorial 2,2023.1.3,59.978072016931435,
227,0,227,0,322.6949480000003,323.6953231000002,323.6953231000002,up,1,0.43147030000000086,None,0,524505,001,2023-09-14_16h20.31.484,Tutorial 2,2023.1.3,59.978072016931435,
228,0,228,0,324.14556360000006,325.1457940999999,325.1457940999999,up,1,0.38015879999966273,None,0,524505,001,2023-09-14_16h20.31.484,Tutorial 2,2023.1.3,59.978072016931435,
229,0,229,0,325.5460100999999,326.5463986,326.5463986,up,1,0.27292589999933625,None,0,524505,001,2023-09-14_16h20.31.484,Tutorial 2,2023.1.3,59.978072016931435,
230,0,230,0,326.8464721999999,327.84681520000004,327.84681520000004,up,0,0.22689609999952154,None,2,524505,001,2023-09-14_16h20.31.484,Tutorial 2,2023.1.3,59.978072016931435,
231,0,231,0,328.09695980000015,329.0974351,329.0974351,up,1,0.1830522999994173,None,0,524505,001,2023-09-14_16h20.31.484,Tutorial 2,2023.1.3,59.978072016931435,
232,0,232,0,329.29745090000006,330.2978226,330.2978226,up,1,0.02886119999948278,None,0,524505,001,2023-09-14_16h20.31.484,Tutorial 2,2023.1.3,59.978072016931435,
233,0,233,0,330.3478189000002,331.3482377,331.3482377,up,1,0.05456659999981639,None,0,524505,001,2023-09-14_16h20.31.484,Tutorial 2,2023.1.3,59.978072016931435,
234,0,234,0,331.43159330000026,332.43198140000004,332.43198140000004,up,0,0.2862769999996999,None,1,524505,001,2023-09-14_16h20.31.484,Tutorial 2,2023.1.3,59.978072016931435,
235,0,235,0,332.7488000000003,333.7491404000002,333.7491404000002,up,0,0.038683599999785656,None,-4,524505,001,2023-09-14_16h20.31.484,Tutorial 2,2023.1.3,59.978072016931435,
236,0,236,0,333.8158671000001,334.81621780000023,334.81621780000023,up,1,0.17471679999971457,None,0,524505,001,2023-09-14_16h20.31.484,Tutorial 2,2023.1.3,59.978072016931435,
237,0,237,0,335.0163232,336.0166635999999,336.0166635999999,up,1,0.04873729999962961,None,0,524505,001,2023-09-14_16h20.31.484,Tutorial 2,2023.1.3,59.978072016931435,
238,0,238,0,336.0833488000003,337.0836773000001,337.0836773000001,up,0,0.33821869999974297,None,2,524505,001,2023-09-14_16h20.31.484,Tutorial 2,2023.1.3,59.978072016931435,
239,0,239,0,337.45051749999993,338.4508799,338.4508799,up,1,0.5230516999995416,None,0,524505,001,2023-09-14_16h20.31.484,Tutorial 2,2023.1.3,59.978072016931435,
240,0,240,0,339.0011281000002,340.00145610000027,340.00145610000027,up,0,0.2900312999995549,None,1,524505,001,2023-09-14_16h20.31.484,Tutorial 2,2023.1.3,59.978072016931435,
241,0,241,0,340.3182952000002,341.31861800000024,341.31861800000024,up,0,0.3950479999994059,None,-1,524505,001,2023-09-14_16h20.31.484,Tutorial 2,2023.1.3,59.978072016931435,
242,0,242,0,341.73559079999995,342.73581390000027,342.73581390000027,up,1,0.39787599999999657,None,0,524505,001,2023-09-14_16h20.31.484,Tutorial 2,2023.1.3,59.978072016931435,
243,0,243,0,343.15269209999997,344.1530794999999,344.1530794999999,up,1,0.31304629999976896,None,0,524505,001,2023-09-14_16h20.31.484,Tutorial 2,2023.1.3,59.978072016931435,
244,0,244,0,344.48665660000006,345.4870387000001,345.4870387000001,up,0,0.2258942999997089,None,-4,524505,001,2023-09-14_16h20.31.484,Tutorial 2,2023.1.3,59.978072016931435,
245,0,245,0,345.73703019999994,346.7373553000002,346.7373553000002,up,0,0.24480869999979404,None,0,524505,001,2023-09-14_16h20.31.484,Tutorial 2,2023.1.3,59.978072016931435,
246,0,246,0,347.00427450000007,348.0045468000003,348.0045468000003,up,0,0.27717879999954675,None,-4,524505,001,2023-09-14_16h20.31.484,Tutorial 2,2023.1.3,59.978072016931435,
247,0,247,0,348.30468580000024,349.30498639999996,349.30498639999996,up,0,0.3342725999996219,None,1,524505,001,2023-09-14_16h20.31.484,Tutorial 2,2023.1.3,59.978072016931435,
248,0,248,0,349.6718341999999,350.67232319999994,350.67232319999994,up,0,0.3975345999997444,None,-2,524505,001,2023-09-14_16h20.31.484,Tutorial 2,2023.1.3,59.978072016931435,
249,0,249,0,351.08905730000015,352.0893665000003,352.0893665000003,up,1,0.3353978999998617,None,0,524505,001,2023-09-14_16h20.31.484,Tutorial 2,2023.1.3,59.978072016931435,
250,0,250,0,352.45619780000015,353.45655940000006,353.45655940000006,up,0,0.24375289999989036,None,1,524505,001,2023-09-14_16h20.31.484,Tutorial 2,2023.1.3,59.978072016931435,
251,0,251,0,353.7234655000002,354.7237777,354.7237777,up,0,0.3410044999995989,None,0,524505,001,2023-09-14_16h20.31.484,Tutorial 2,2023.1.3,59.978072016931435,
252,0,252,0,355.0905766000001,356.09092450000026,356.09092450000026,up,1,0.6352237999999488,None,0,524505,001,2023-09-14_16h20.31.484,Tutorial 2,2023.1.3,59.978072016931435,
253,0,253,0,356.7579045000002,357.7582494000003,357.7582494000003,up,0,0.617176599999766,None,-3,524505,001,2023-09-14_16h20.31.484,Tutorial 2,2023.1.3,59.978072016931435,
254,0,254,0,358.4084117000002,359.4088974000001,359.4088974000001,up,0,0.4963990999995076,None,-5,524505,001,2023-09-14_16h20.31.484,Tutorial 2,2023.1.3,59.978072016931435,
255,0,255,0,359.9257931000002,360.9262093000002,360.9262093000002,up,0,0.5193814999997812,None,-4,524505,001,2023-09-14_16h20.31.484,Tutorial 2,2023.1.3,59.978072016931435,
256,0,256,0,361.47629540000025,362.47666900000013,362.47666900000013,up,1,0.46142699999973047,None,0,524505,001,2023-09-14_16h20.31.484,Tutorial 2,2023.1.3,59.978072016931435,
257,0,257,0,362.9602825000002,363.9605735,363.9605735,up,0,0.35982049999984156,None,2,524505,001,2023-09-14_16h20.31.484,Tutorial 2,2023.1.3,59.978072016931435,
258,0,258,0,364.34404300000006,365.3445264000002,365.3445264000002,up,0,0.345369199999368,None,-2,524505,001,2023-09-14_16h20.31.484,Tutorial 2,2023.1.3,59.978072016931435,
259,0,259,0,365.71138550000023,366.71165710000014,366.71165710000014,up,1,0.5221364999997604,None,0,524505,001,2023-09-14_16h20.31.484,Tutorial 2,2023.1.3,59.978072016931435,
260,0,260,0,367.2618966,368.2623002,368.2623002,up,0,0.48237699999981487,None,-5,524505,001,2023-09-14_16h20.31.484,Tutorial 2,2023.1.3,59.978072016931435,
261,0,261,0,368.76253840000027,369.76284880000003,369.76284880000003,up,1,0.6223439999998845,None,0,524505,001,2023-09-14_16h20.31.484,Tutorial 2,2023.1.3,59.978072016931435,
262,0,262,0,370.4130580000001,371.41374640000004,371.41374640000004,up,0,1.2283297999997558,None,1,524505,001,2023-09-14_16h20.31.484,Tutorial 2,2023.1.3,59.978072016931435,
263,0,263,0,372.66406240000015,373.66425960000015,373.66425960000015,up,1,0.5495684999996229,None,0,524505,001,2023-09-14_16h20.31.484,Tutorial 2,2023.1.3,59.978072016931435,
264,0,264,0,374.2311666999999,375.2315438999999,375.2315438999999,up,0,0.5146326999997655,None,1,524505,001,2023-09-14_16h20.31.484,Tutorial 2,2023.1.3,59.978072016931435,
265,0,265,0,375.7650417,376.76543870000023,376.76543870000023,up,0,0.7085236999996596,None,-4,524505,001,2023-09-14_16h20.31.484,Tutorial 2,2023.1.3,59.978072016931435,
266,0,266,0,377.4991460000001,378.4993783,378.4993783,up,1,0.3872778999993898,None,0,524505,001,2023-09-14_16h20.31.484,Tutorial 2,2023.1.3,59.978072016931435,
267,0,267,0,378.91634150000027,379.91670920000024,379.91670920000024,up,1,0.5132985999998709,None,0,524505,001,2023-09-14_16h20.31.484,Tutorial 2,2023.1.3,59.978072016931435,
268,0,268,0,380.4501608999999,381.4505171999999,381.4505171999999,up,1,0.4131070999997064,None,0,524505,001,2023-09-14_16h20.31.484,Tutorial 2,2023.1.3,59.978072016931435,
269,0,269,0,381.8840654999999,382.8844684999999,382.8844684999999,up,1,0.8350356999994801,None,0,524505,001,2023-09-14_16h20.31.484,Tutorial 2,2023.1.3,59.978072016931435,
270,0,270,0,383.7515555,384.7519198,384.7519198,up,0,3.796628299999611,None,-4,524505,001,2023-09-14_16h20.31.484,Tutorial 2,2023.1.3,59.978072016931435,
271,0,271,0,388.5699204000002,389.57027340000013,389.57027340000013,up,0,0.392511299999569,None,3,524505,001,2023-09-14_16h20.31.484,Tutorial 2,2023.1.3,59.978072016931435,
272,0,272,0,389.9871597000001,390.9875384000002,390.9875384000002,up,0,0.3826888999997209,None,2,524505,001,2023-09-14_16h20.31.484,Tutorial 2,2023.1.3,59.978072016931435,
273,0,273,0,391.38767039999993,392.3880647000001,392.3880647000001,up,0,0.33356199999980163,None,1,524505,001,2023-09-14_16h20.31.484,Tutorial 2,2023.1.3,59.978072016931435,
274,0,274,0,392.73815820000027,393.7385787000003,393.7385787000003,up,0,0.16291539999974702,None,-4,524505,001,2023-09-14_16h20.31.484,Tutorial 2,2023.1.3,59.978072016931435,
275,0,275,0,393.92205360000025,394.92239960000006,394.92239960000006,up,1,0.17022899999983565,None,0,524505,001,2023-09-14_16h20.31.484,Tutorial 2,2023.1.3,59.978072016931435,
276,0,276,0,395.12239769999996,396.1227782000001,396.1227782000001,up,1,0.041399299999739014,None,0,524505,001,2023-09-14_16h20.31.484,Tutorial 2,2023.1.3,59.978072016931435,
277,0,277,0,396.18951319999996,397.18989550000015,397.18989550000015,up,0,0.07864269999981843,None,-3,524505,001,2023-09-14_16h20.31.484,Tutorial 2,2023.1.3,59.978072016931435,
278,0,278,0,397.28997660000005,398.2902675,398.2902675,up,0,0.3850750999995398,None,2,524505,001,2023-09-14_16h20.31.484,Tutorial 2,2023.1.3,59.978072016931435,
279,0,279,0,398.7072296000001,399.7074269,399.7074269,up,1,0.21279619999995703,None,0,524505,001,2023-09-14_16h20.31.484,Tutorial 2,2023.1.3,59.978072016931435,
280,0,280,0,399.9409300000002,400.9415237000003,400.9415237000003,up,0,0.18367429999989326,None,-1,524505,001,2023-09-14_16h20.31.484,Tutorial 2,2023.1.3,59.978072016931435,
281,0,281,0,401.15812030000006,402.1585643000003,402.1585643000003,up,1,0.20226419999971768,None,0,524505,001,2023-09-14_16h20.31.484,Tutorial 2,2023.1.3,59.978072016931435,
282,0,282,0,402.3918902999999,403.3922872000003,403.3922872000003,up,1,0.10650009999972099,None,0,524505,001,2023-09-14_16h20.31.484,Tutorial 2,2023.1.3,59.978072016931435,
283,0,283,0,403.5256038000002,404.52598560000024,404.52598560000024,up,1,0.1759127999998782,None,0,524505,001,2023-09-14_16h20.31.484,Tutorial 2,2023.1.3,59.978072016931435,
284,0,284,0,404.7260789000002,405.7264332,405.7264332,up,0,0.18622729999970034,None,-3,524505,001,2023-09-14_16h20.31.484,Tutorial 2,2023.1.3,59.978072016931435,
285,0,285,0,405.94335290000026,406.9435271000002,406.9435271000002,up,1,0.22340609999946537,None,0,524505,001,2023-09-14_16h20.31.484,Tutorial 2,2023.1.3,59.978072016931435,
286,0,286,0,407.1936845,408.1940442,408.1940442,up,0,0.06895339999982752,None,4,524505,001,2023-09-14_16h20.31.484,Tutorial 2,2023.1.3,59.978072016931435,
287,0,287,0,408.29411530000016,409.2944837,409.2944837,down,1,0.40505459999940285,None,-1,524505,001,2023-09-14_16h20.31.484,Tutorial 2,2023.1.3,59.978072016931435,
288,0,288,0,409.72799940000004,410.7283812999999,410.7283812999999,up,1,0.28965919999973266,None,0,524505,001,2023-09-14_16h20.31.484,Tutorial 2,2023.1.3,59.978072016931435,
289,0,289,0,411.0451869000003,412.04558270000007,412.04558270000007,down,0,0.3822712000001047,None,0,524505,001,2023-09-14_16h20.31.484,Tutorial 2,2023.1.3,59.978072016931435,
290,0,290,0,412.4456862000002,413.4461022999999,413.4461022999999,down,0,0.17950909999944997,None,0,524505,001,2023-09-14_16h20.31.484,Tutorial 2,2023.1.3,59.978072016931435,
291,0,291,0,413.6461844999999,414.64649610000015,414.64649610000015,down,1,0.8791440999993938,None,-2,524505,001,2023-09-14_16h20.31.484,Tutorial 2,2023.1.3,59.978072016931435,
292,0,292,0,415.5468288000002,416.54724410000017,416.54724410000017,down,1,0.3796657999996569,None,-1,524505,001,2023-09-14_16h20.31.484,Tutorial 2,2023.1.3,59.978072016931435,
293,0,293,0,416.9473954,417.94784040000013,417.94784040000013,down,0,0.6713949999998476,None,0,524505,001,2023-09-14_16h20.31.484,Tutorial 2,2023.1.3,59.978072016931435,
294,0,294,0,418.64803500000016,419.64849700000013,419.64849700000013,up,0,0.3726784000000407,None,2,524505,001,2023-09-14_16h20.31.484,Tutorial 2,2023.1.3,59.978072016931435,
295,0,295,0,420.0485870000002,421.0490242999999,421.0490242999999,down,0,0.15704090000008364,None,0,524505,001,2023-09-14_16h20.31.484,Tutorial 2,2023.1.3,59.978072016931435,
296,0,296,0,421.23249480000004,422.2334814999999,422.2334814999999,down,1,0.4219609999995555,None,4,524505,001,2023-09-14_16h20.31.484,Tutorial 2,2023.1.3,59.978072016931435,
297,0,297,0,422.68302070000027,423.6833867,423.6833867,down,1,0.5689313999996557,None,0,524505,001,2023-09-14_16h20.31.484,Tutorial 2,2023.1.3,59.978072016931435,
298,0,298,0,424.2709583000001,425.2671924000001,425.2838778,down,1,0.4990767999993295,None,-3,524505,001,2023-09-14_16h20.31.484,Tutorial 2,2023.1.3,59.978072016931435,
299,0,299,0,425.7841343,426.7844677000003,426.7844677000003,down,0,0.34582060000002457,None,0,524505,001,2023-09-14_16h20.31.484,Tutorial 2,2023.1.3,59.978072016931435,
